Folder: interpolated-idwt-background/data/raman

Note: README.md
# interpolated-idwt-background
Implementation of interpolated inverse discrete wavelet transforms for spectral background corrections. This is a repository for the software used to create the results for the paper "Interpolated inverse discrete wavelet transforms in additive and non-additive spectral background corrections'' [doi.org/10.1364/OPTCON.488136](https://doi.org/10.1364/OPTCON.488136).
# Interpolated inverse discrete wavelet transforms for spectral background corrections
Implementation of interpolated inverse discrete wavelet transforms for spectral background corrections. This is a repository for the software used to create the results for the paper "Interpolated inverse discrete wavelet transforms in additive and non-additive spectral background corrections'' ([doi.org/10.1364/OPTCON.488136](https://doi.org/10.1364/OPTCON.488136)).

The method extends the wavelet prism method ([doi.org/10.1364/OE.24.011905](https://doi.org/10.1364/OE.24.011905)) by interpolating between the individual inverse discrete wavelet reconstruction levels. This results in a continuous model for the spectral background instead of the discrete number of levels. A simple $L^1$-norm based optimization scheme is included for both the additive and multiplicative models.

# Installation
Clone or download the repository and add the include folder and subfolders to your MATLAB path.

# References
If you find the software useful, please cite [doi.org/10.1364/OPTCON.488136](https://doi.org/10.1364/OPTCON.488136).

File: PY 150 - nickel azo yellow.csv
326,648;308,3400
333,206;254,4437
339,764;267,9474
346,322;235,9630
352,88;269,0000
359,438;290,6875
365,996;346,6569
372,554;430,0259
379,112;476,2713
385,67;469,0929
392,227;445,3421
398,785;383,8675
405,343;350,5868
411,901;336,2434
418,459;352,0000
425,017;357,5365
431,575;406,8570
438,133;432,7622
444,691;495,7586
451,249;514,8834
457,807;552,3667
464,365;576,7907
470,923;541,9426
477,481;524,2173
484,039;566,8391
490,597;628,7962
497,155;626,8486
503,713;705,4659
510,271;753,3164
516,829;715,8941
523,387;549,1143
529,945;421,7431
536,503;386,8428
543,061;352,3945
549,619;354,9212
556,177;400,5508
562,735;395,9729
569,293;381,1020
575,851;369,9668
582,409;380,0339
588,966;368,9738
595,524;354,3703
602,082;336,6930
608,64;327,4514
615,198;393,8834
621,756;410,4756
628,314;408,0468
634,872;349,2794
641,43;288,0389
647,988;285,1442
654,546;323,7942
661,104;392,4551
667,662;515,3143
674,22;762,4241
680,778;1232,4260
687,336;1678,6430
693,894;1967,2850
700,452;1552,6830
707,01;759,0414
713,568;475,2043
720,126;374,4853
726,684;322,1909
733,242;296,6707
739,8;285,9852
746,358;278,6696
752,916;291,9063
759,474;302,5679
766,032;263,1540
772,59;335,5320
779,148;344,2970
785,705;285,7984
792,263;218,4785
798,821;240,1461
805,379;224,9431
811,937;218,1217
818,495;248,0762
825,053;246,3835
831,611;225,3455
838,169;240,2101
844,727;252,9073
851,285;237,4981
857,843;211,6062
864,401;255,6824
870,959;240,9240
877,517;238,6325
884,075;229,7711
890,633;267,8954
897,191;285,8309
903,749;298,1473
910,307;343,7341
916,865;398,6857
923,423;450,0753
929,981;540,6823
936,539;593,5015
943,097;593,7047
949,655;506,7072
956,213;431,9442
962,771;362,1744
969,329;387,7434
975,887;353,4992
982,444;386,2949
989,002;433,7229
995,56;368,1064
1002,118;290,0949
1008,676;296,9978
1015,234;267,3319
1021,792;272,1256
1028,35;278,6337
1034,908;288,7880
1041,466;301,0000
1048,024;314,4988
1054,582;301,1589
1061,14;305,2005
1067,698;284,8112
1074,256;270,9071
1080,814;227,5425
1087,372;237,1289
1093,93;246,1243
1100,488;262,0224
1107,046;251,9298
1113,604;242,1235
1120,162;273,0033
1126,72;299,4111
1133,278;337,4152
1139,836;379,0000
1146,394;447,8492
1152,952;552,8181
1159,51;652,5734
1166,068;684,1995
1172,626;638,8670
1179,183;584,2989
1185,741;608,0763
1192,299;684,3438
1198,857;758,7240
1205,415;968,3897
1211,973;1231,6410
1218,531;1464,6060
1225,089;1340,8380
1231,647;1014,8150
1238,205;727,9533
1244,763;579,4297
1251,321;501,0589
1257,879;487,8078
1264,437;493,9191
1270,995;506,5678
1277,553;558,1654
1284,111;662,0000
1290,669;882,4844
1297,227;1268,2870
1303,785;1382,1020
1310,343;992,4753
1316,901;619,6804
1323,459;517,7125
1330,017;498,0499
1336,575;501,1452
1343,133;549,4524
1349,691;576,4909
1356,249;616,3652
1362,807;734,5903
1369,365;847,8425
1375,922;998,2467
1382,48;1201,3490
1389,038;1467,9530
1395,596;1919,6220
1402,154;2638,9200
1408,712;3654,0270
1415,27;5125,7280
1421,828;6865,0800
1428,386;8735,8310
1434,944;11219,6100
1441,502;14970,7500
1448,06;19012,6500
1454,618;19702,4500
1461,176;14052,4300
1467,734;7776,6640
1474,292;4136,4020
1480,85;2500,5070
1487,408;1709,4990
1493,966;1300,7350
1500,524;1071,1430
1507,082;944,4211
1513,64;875,8100
1520,198;818,3430
1526,756;730,0000
1533,314;668,9096
1539,872;598,7398
1546,43;559,6320
1552,988;516,9249
1559,546;514,2148
1566,104;508,0000
1572,661;519,1718
1579,219;551,8179
1585,777;575,3702
1592,335;594,3705
1598,893;573,0290
1605,451;502,3186
1612,009;474,8172
1618,567;446,8753
1625,125;445,3616
1631,683;450,1853
1638,241;424,7780
1644,799;363,0000
1651,357;364,5858
1657,915;327,1821
1664,473;281,0470
1671,031;256,3630
1677,589;257,5183
1684,147;265,5690
1690,705;258,8616
1697,263;271,2144
1703,821;294,5208
1710,379;265,2690
1716,937;291,3887
1723,495;281,2147
1730,053;240,3127
1736,611;235,8586
1743,169;214,2054
1749,727;201,3360
1756,285;204,1204
1762,843;179,6774
1769,4;183,9557
1775,958;164,9735
1782,516;156,0556
1789,074;162,3127
1795,632;135,5644
1802,19;136,5882
1808,748;132,9839
1815,306;132,5528
1821,864;133,5460
1828,422;144,8415
1834,98;106,4896
1841,538;143,3315
1848,096;138,8473
1854,654;142,9003
1861,212;122,7452
1867,77;141,0000